File: matlab/Figure 1/PLA.txt
Filename	PLA
Instrument name	0850-00115
Operator
rundate	2019/12/19
proceduresegments	DMA Oscillatory Temperature Ramp
[File Parameters]
Name	PLA
Instrument type	DMA850
Instrument serial number	0850-00115
Instrument name	0850-00115
Instrument location	MFG
Company name	TA
Trios version	4.4.0.41128
File name	D:\2019SJTU\密西根\朱宰亨\邹璧卉\1219 yp201979474\PLA.tri
Run date	2019/12/19 12:33:09
Preload Direction	-1.00000
Starting Force	0.00000
Starting Displacement	17254.8
Time at start of test	0.136161
[Clamp Parameters]
Geometry mass	21.42
Clamp Compliance	0.384603
Zero reference position	28.675
Tool mass calibration date	2019/12/2
Compliance calibration date	2019/12/2
[Firmware Versions]
InfoVerDsp	V2018.9.27
InfoVerWinCe	V2018.8.7
InfoVerDmaIface14	V2017.10.23
InfoVerDmaPower15	V2017.8.9
[Calibration Date Information]
InfoDateDynPhase	2018/11/9 14:33
InfoDateStaticNrm	2018/11/9 13:57
InfoDateTorqLag	2018/6/9 4:07
InfoDateADGain	2018/6/9 3:50
InfoDateInertiaPhase	2018/11/9 14:12
InfoDateInertiaMass	2018/6/11 20:32
InfoDateShaftMass	2018/6/9 3:26
InfoDateDmaForcePosn	2018/6/11 20:26
InfoDateDmaEncoderCorr	2018/6/11 20:30
InfoDateDmaInstStability	2018/11/9 13:52
InfoDateDmaTempOffset	2019/3/26 15:26
InfoDateDmaThermocoupleCal	2019/3/26 14:21
InfoDateSpare17	2018/6/9 3:23
[Calibration Parameters]
SPFrtScaleHi	1987.868
InfoOlStressTol	1.000e-2
InfoOlStressMaxCnt	0
InfoIntSpare8	0
Collect data only when stable	Enabled
Temperature option	None
[step]
Temperature Ramp - 1
Angular frequency	Step time	Temperature	Oscillation strain	Oscillation stress	Tan(delta)	Storage modulus	Loss modulus
rad/s	min	°C	%	MPa		MPa	MPa
6.28319	6.59967	-0.186	0.0438029	1.12739	0.0173747	2573.38	44.5714
6.28319	6.64967	-0.126	0.0438409	1.12705	0.0174332	2570.37	44.6165
6.28319	6.69967	-0.102	0.0437826	1.12670	0.0171175	2573.01	44.5460
6.28319	6.74967	-0.061	0.0437919	1.12737	0.0174556	2573.99	44.4554
6.28319	6.79967	-0.029	0.0438168	1.12786	0.0175412	2573.65	44.4417
6.28319	6.84967	0.007	0.0438157	1.12762	0.0169922	2573.19	44.3634
6.28319	6.89967	0.044	0.0438148	1.12655	0.0168490	2570.81	44.2862
6.28319	6.94967	0.121	0.0437904	1.12704	0.0176162	2573.31	44.1593
6.28319	6.99967	0.194	0.0438016	1.12749	0.0169019	2573.70	44.0471
6.28319	7.04967	0.303	0.0438314	1.12738	0.0171282	2571.70	43.8073
6.28319	7.09967	0.389	0.0437984	1.12687	0.0174098	2572.46	43.8331
6.28319	7.14967	0.453	0.0438243	1.12749	0.0164041	2572.41	43.7630
6.28319	7.19967	0.549	0.0438044	1.12613	0.0166440	2570.47	43.5617
6.28319	7.24967	0.670	0.0438254	1.12722	0.0170654	2571.69	43.6077
6.28319	7.29967	0.763	0.0437855	1.12649	0.0168616	2572.37	43.5775
6.28319	7.34967	0.833	0.0438389	1.12722	0.0168440	2570.92	43.6042
6.28319	7.39967	0.887	0.0437743	1.12569	0.0163622	2571.24	43.7901
6.28319	7.44967	0.970	0.0438194	1.12790	0.0174771	2573.59	43.7818
6.28319	7.49967	1.044	0.0438009	1.12698	0.0170455	2572.59	43.7073
6.28319	7.54967	1.133	0.0438253	1.12705	0.0164636	2571.33	43.7398
6.28319	7.59967	1.188	0.0438045	1.12631	0.0173888	2570.84	43.7735
6.28319	7.64967	1.269	0.0438142	1.12694	0.0167608	2571.73	43.6056
6.28319	7.69967	1.353	0.0438138	1.12707	0.0175356	2572.00	43.5420
6.28319	7.74967	1.425	0.0438212	1.12717	0.0180743	2571.79	43.4994
6.28319	7.79967	1.522	0.0437845	1.12653	0.0170551	2572.54	43.5494
6.28319	7.84967	1.618	0.0438179	1.12665	0.0170411	2570.83	43.4295
6.28319	7.89967	1.728	0.0437951	1.12670	0.0165680	2572.32	43.3363
6.28319	7.94967	1.852	0.0438343	1.12685	0.0169089	2570.34	43.4826
6.28319	7.99966	1.926	0.0438095	1.12568	0.0159738	2569.17	43.5276
6.28319	8.04967	2.028	0.0437923	1.12602	0.0164183	2570.93	43.5081
6.28319	8.09967	2.105	0.0438034	1.12555	0.0164345	2569.22	43.4289
6.28319	8.14967	2.192	0.0438281	1.12636	0.0166198	2569.60	43.1219
6.28319	8.19967	2.296	0.0438383	1.12525	0.0169946	2566.46	43.1141
6.28319	8.24967	2.452	0.0438038	1.12509	0.0166680	2568.13	43.1993
6.28319	8.29967	2.603	0.0437924	1.12470	0.0175367	2567.85	43.1487
6.28319	8.34967	2.725	0.0438460	1.12534	0.0175724	2566.18	43.1328
6.28319	8.39967	2.857	0.0437971	1.12452	0.0166410	2567.20	43.4763
6.28319	8.44967	2.984	0.0438471	1.12223	0.0172005	2559.04	43.5590
6.28319	8.49967	3.106	0.0437641	1.12363	0.0164465	2567.13	43.6557
6.28319	8.54967	3.259	0.0438197	1.12471	0.0172920	2566.28	43.6839
6.28319	8.59967	3.421	0.0438243	1.12372	0.0175818	2563.75	43.6332
6.28319	8.64967	3.577	0.0438196	1.12326	0.0160452	2563.05	43.7513
6.28319	8.69966	3.719	0.0438244	1.12231	0.0168957	2560.56	43.7140
6.28319	8.74966	3.882	0.0437719	1.12279	0.0180373	2564.67	43.6933
6.28319	8.79966	4.030	0.0438607	1.12319	0.0169374	2560.45	43.7431
6.28319	8.84967	4.181	0.0437988	1.12150	0.0170210	2560.20	43.7159
6.28319	8.89967	4.312	0.0437584	1.12272	0.0167326	2565.36	43.8279
6.28319	8.94967	4.459	0.0438492	1.12320	0.0167334	2561.15	43.7238
6.28319	8.99967	4.608	0.0438279	1.12175	0.0174393	2559.06	43.7091
6.28319	9.04967	4.783	0.0437864	1.12149	0.0173730	2560.89	43.8689
6.28319	9.09967	4.957	0.0438268	1.12197	0.0174695	2559.62	43.8718
6.28319	9.14967	5.123	0.0438154	1.12136	0.0169943	2558.91	43.5813
6.28319	9.19967	5.283	0.0438041	1.12129	0.0170432	2559.40	43.3934
6.28319	9.24967	5.431	0.0438308	1.12095	0.0171670	2557.07	43.3587
6.28319	9.29967	5.600	0.0438024	1.12022	0.0167359	2557.08	43.3914
6.28319	9.34967	5.767	0.0438280	1.12017	0.0176616	2555.44	43.4369
6.28319	9.39967	5.893	0.0438050	1.11992	0.0168757	2556.24	43.5462
6.28319	9.44967	6.079	0.0438127	1.11972	0.0169548	2555.32	43.4334
6.28319	9.49967	6.297	0.0438007	1.11894	0.0164010	2554.26	43.4548
6.28319	9.54967	6.486	0.0438383	1.11991	0.0159064	2554.30	43.4535
6.28319	9.59967	6.679	0.0438194	1.11857	0.0167845	2552.32	43.3461
6.28319	9.64967	6.850	0.0437930	1.11780	0.0170056	2552.10	43.3823
6.28319	9.69967	6.998	0.0438305	1.11820	0.0170514	2550.82	43.4028
6.28319	9.74967	7.147	0.0437661	1.11738	0.0181702	2552.64	43.2909
6.28319	9.79966	7.326	0.0438583	1.11846	0.0168249	2549.80	43.3778
6.28319	9.84966	7.518	0.0438269	1.11594	0.0177525	2545.84	43.2667
6.28319	9.89966	7.678	0.0438399	1.11493	0.0170639	2542.81	43.4194
6.28319	9.94967	7.826	0.0437845	1.11512	0.0165103	2546.48	43.6007
6.28319	9.99967	8.024	0.0438372	1.11547	0.0174200	2544.18	43.6179
6.28319	10.0497	8.198	0.0437977	1.11435	0.0169980	2543.95	43.6358
6.28319	10.0997	8.391	0.0438194	1.11459	0.0171250	2543.22	43.3325
6.28319	10.1497	8.564	0.0438221	1.11381	0.0175029	2541.28	43.1672
6.28319	10.1997	8.772	0.0438046	1.11336	0.0163600	2541.32	43.1714
6.28319	10.2497	8.910	0.0438174	1.11387	0.0174000	2541.70	43.1344
6.28319	10.2997	9.100	0.0438274	1.11330	0.0169499	2539.82	43.1919
6.28319	10.3497	9.310	0.0438004	1.11205	0.0169911	2538.53	43.3665
6.28319	10.3997	9.449	0.0438083	1.11275	0.0171951	2539.66	43.4592
6.28319	10.4497	9.615	0.0438484	1.11136	0.0155078	2534.24	43.5099
6.28319	10.4997	9.771	0.0438289	1.11087	0.0172720	2534.18	43.4312
6.28319	10.5497	9.998	0.0438248	1.11026	0.0170676	2533.03	43.4159
6.28319	10.5997	10.173	0.0437811	1.10967	0.0174870	2534.19	43.4861
6.28319	10.6497	10.323	0.0438202	1.11073	0.0174713	2534.35	43.5243
6.28319	10.6997	10.476	0.0438373	1.10926	0.0176389	2530.01	43.7020
6.28319	10.7497	10.665	0.0438245	1.10880	0.0181023	2529.68	44.0339
6.28319	10.7997	10.847	0.0437937	1.10790	0.0174377	2529.43	43.9264
6.28319	10.8497	11.009	0.0438119	1.10833	0.0168031	2529.39	44.3494
6.28319	10.8997	11.103	0.0438142	1.10760	0.0172957	2527.58	44.2627
6.28319	10.9497	11.271	0.0438187	1.10758	0.0169058	2527.29	44.3848
6.28319	10.9997	11.440	0.0438073	1.10709	0.0177306	2526.78	44.5199
6.28319	11.0497	11.620	0.0438065	1.10670	0.0181734	2525.92	44.5508
6.28319	11.0997	11.774	0.0438052	1.10734	0.0188713	2527.42	44.3041
6.28319	11.1497	11.959	0.0438318	1.10706	0.0166380	2525.35	44.0433
6.28319	11.1997	12.124	0.0438738	1.10511	0.0181938	2518.42	44.0677
6.28319	11.2497	12.289	0.0437670	1.10442	0.0169918	2523.06	44.0887
6.28319	11.2997	12.452	0.0438069	1.10521	0.0178443	2522.52	44.1622
6.28319	11.3497	12.655	0.0438259	1.10508	0.0184491	2521.10	44.1575
6.28319	11.3997	12.815	0.0438250	1.10429	0.0177210	2519.39	44.3393
6.28319	11.4497	12.953	0.0438236	1.10336	0.0162588	2517.41	44.2258
6.28319	11.4997	13.126	0.0438615	1.10230	0.0166980	2512.78	44.1141
6.28319	11.5497	13.299	0.0437812	1.10132	0.0176871	2515.10	44.3781
6.28319	11.5997	13.433	0.0437938	1.10209	0.0170188	2516.18	44.3666
6.28319	11.6497	13.602	0.0438459	1.10155	0.0178328	2511.91	44.5628
6.28319	11.6997	13.748	0.0437954	1.10043	0.0171963	2512.28	44.6098
6.28319	11.7497	13.899	0.0437796	1.10104	0.0188173	2514.51	44.5027
6.28319	11.7997	14.061	0.0438578	1.10144	0.0175098	2510.99	44.4085
6.28319	11.8497	14.234	0.0438065	1.10005	0.0182218	2510.73	44.7636
6.28319	11.8997	14.385	0.0438292	1.09946	0.0183015	2508.10	45.1101
6.28319	11.9497	14.558	0.0438072	1.09918	0.0182729	2508.70	44.9137
6.28319	11.9997	14.686	0.0438373	1.09906	0.0182235	2506.72	45.2015
6.28319	12.0497	14.843	0.0438095	1.09722	0.0183467	2504.11	45.2396
6.28319	12.0997	15.002	0.0438154	1.09710	0.0179889	2503.51	45.3067
6.28319	12.1497	15.127	0.0438255	1.09747	0.0171910	2503.81	45.1217
6.28319	12.1997	15.216	0.0438280	1.09659	0.0183022	2501.61	45.2385
6.28319	12.2497	15.375	0.0438598	1.09560	0.0188719	2497.51	45.0661
6.28319	12.2997	15.557	0.0437802	1.09413	0.0167340	2498.78	44.9592
6.28319	12.3497	15.716	0.0438121	1.09467	0.0188923	2498.11	44.8944
6.28319	12.3997	15.855	0.0438051	1.09364	0.0181774	2496.18	44.8912
6.28319	12.4497	15.989	0.0438434	1.09365	0.0178220	2494.04	44.7715
6.28319	12.4997	16.149	0.0438040	1.09284	0.0177529	2494.46	44.7914
6.28319	12.5497	16.307	0.0437933	1.09316	0.0181414	2495.76	45.0263
6.28319	12.5997	16.432	0.0438483	1.09286	0.0173160	2491.99	45.0102
6.28319	12.6497	16.551	0.0438144	1.09198	0.0179481	2491.89	44.8353
6.28319	12.6997	16.688	0.0438092	1.09122	0.0180621	2490.43	45.0566
6.28319	12.7497	16.854	0.0438263	1.09134	0.0182937	2489.72	44.9516
6.28319	12.7997	17.022	0.0438205	1.09073	0.0177210	2488.70	44.9218
6.28319	12.8497	17.149	0.0438069	1.09030	0.0182196	2488.48	44.9431
6.28319	12.8997	17.335	0.0438091	1.08996	0.0187222	2487.53	45.0276
6.28319	12.9497	17.500	0.0438223	1.09001	0.0183047	2486.92	45.0774
6.28319	12.9997	17.641	0.0438271	1.08866	0.0180092	2483.59	45.0601
6.28319	13.0497	17.799	0.0438229	1.08872	0.0179957	2483.97	45.0092
6.28319	13.0997	17.998	0.0438074	1.08789	0.0184572	2482.92	45.0592
6.28319	13.1497	18.175	0.0438194	1.08739	0.0180762	2481.11	44.9943
6.28319	13.1997	18.315	0.0438028	1.08729	0.0180893	2481.83	45.0016
6.28319	13.2497	18.419	0.0438323	1.08671	0.0182912	2478.83	44.9762
6.28319	13.2997	18.580	0.0437995	1.08643	0.0185324	2480.03	44.8773
6.28319	13.3497	18.745	0.0438457	1.08585	0.0173239	2476.14	44.8090
6.28319	13.3997	18.909	0.0437960	1.08505	0.0177383	2477.12	44.6517
6.28319	13.4497	19.057	0.0438207	1.08499	0.0185598	2475.55	44.7807
6.28319	13.4997	19.209	0.0438116	1.08413	0.0180444	2474.14	44.8069
6.28319	13.5497	19.370	0.0438426	1.08310	0.0179307	2470.02	44.8620
6.28319	13.5997	19.496	0.0437809	1.08242	0.0180034	2471.96	44.9224
6.28319	13.6497	19.634	0.0438633	1.08288	0.0183040	2468.34	44.9454
6.28319	13.6997	19.811	0.0438041	1.08201	0.0180330	2469.70	45.0796
6.28319	13.7497	19.909	0.0438256	1.08115	0.0172508	2466.57	45.1828
6.28319	13.7997	20.052	0.0438120	1.08110	0.0188879	2467.15	45.3799
6.28319	13.8497	20.191	0.0438048	1.08056	0.0187089	2466.34	45.4989
6.28319	13.8997	20.389	0.0438530	1.08015	0.0185137	2462.68	45.6312
6.28319	13.9497	20.563	0.0438067	1.07916	0.0186289	2463.02	45.7659
6.28319	13.9997	20.697	0.0437973	1.07868	0.0186049	2462.45	45.9026
6.28319	14.0497	20.837	0.0438029	1.07873	0.0193241	2462.23	45.8684
6.28319	14.0997	20.957	0.0438347	1.07885	0.0183614	2460.78	45.9250
6.28319	14.1497	21.078	0.0438436	1.07744	0.0191044	2457.01	46.1825
6.28319	14.1997	21.178	0.0438252	1.07674	0.0195965	2456.43	46.1071
6.28319	14.2497	21.336	0.0437994	1.07648	0.0184662	2457.32	46.1336
6.28319	14.2997	21.504	0.0438583	1.07570	0.0186873	2452.25	46.2788
6.28319	14.3497	21.653	0.0437882	1.07430	0.0190622	2452.95	46.2623
6.28319	14.3997	21.834	0.0438569	1.07374	0.0183628	2447.87	46.2818
6.28319	14.4497	21.980	0.0437990	1.07259	0.0186660	2448.47	46.1712
6.28319	14.4997	22.116	0.0438241	1.07205	0.0189453	2445.81	46.3117
6.28319	14.5497	22.275	0.0437775	1.07253	0.0184873	2449.53	46.3573
6.28319	14.5997	22.450	0.0438583	1.07288	0.0190789	2445.78	46.3306
6.28319	14.6497	22.583	0.0438227	1.07150	0.0196112	2444.62	46.4351
6.28319	14.6997	22.699	0.0437887	1.07066	0.0186345	2444.64	46.3591
6.28319	14.7497	22.831	0.0438249	1.07091	0.0189044	2443.18	46.2611
6.28319	14.7997	22.979	0.0438540	1.07054	0.0187950	2440.70	46.5015
6.28319	14.8497	23.148	0.0438157	1.06833	0.0193962	2437.78	46.5869
6.28319	14.8997	23.310	0.0438135	1.06749	0.0195253	2435.97	46.5892
6.28319	14.9497	23.451	0.0438323	1.06713	0.0194330	2434.11	46.6620
6.28319	14.9997	23.576	0.0438291	1.06706	0.0193687	2434.13	46.6104
6.28319	15.0497	23.730	0.0437890	1.06610	0.0184997	2434.22	46.5061
6.28319	15.0997	23.877	0.0437968	1.06553	0.0186487	2432.47	46.6158
6.28319	15.1497	23.989	0.0438389	1.06593	0.0199927	2430.99	46.7936
6.28319	15.1997	24.157	0.0438302	1.06519	0.0192698	2429.81	46.9700
6.28319	15.2497	24.294	0.0438616	1.06407	0.0190938	2425.53	46.9411
6.28319	15.2997	24.439	0.0437857	1.06293	0.0191349	2427.12	46.9906
6.28319	15.3497	24.577	0.0437529	1.06354	0.0188808	2430.35	46.8594
6.28319	15.3997	24.699	0.0438783	1.06404	0.0191165	2424.54	46.8170
6.28319	15.4497	24.834	0.0438379	1.06204	0.0194914	2422.18	47.0294
6.28319	15.4997	25.027	0.0437724	1.06090	0.0202066	2423.18	47.5196
6.28319	15.5497	25.188	0.0438317	1.06121	0.0200110	2420.62	47.5137
6.28319	15.5997	25.350	0.0438519	1.06075	0.0193962	2418.49	47.4662
6.28319	15.6497	25.433	0.0438266	1.05864	0.0200022	2415.03	47.5521
6.28319	15.6997	25.581	0.0438455	1.05777	0.0188187	2412.06	47.7235
6.28319	15.7497	25.750	0.0437955	1.05751	0.0193494	2414.20	47.8771
6.28319	15.7997	25.898	0.0438252	1.05648	0.0199996	2410.18	47.9968
6.28319	15.8497	26.077	0.0438390	1.05490	0.0218485	2405.73	48.0364
6.28319	15.8997	26.234	0.0437859	1.05524	0.0200236	2409.51	48.0097
6.28319	15.9497	26.354	0.0438478	1.05533	0.0191162	2406.36	47.9986
6.28319	15.9997	26.483	0.0438020	1.05446	0.0201537	2406.83	48.0942
6.28319	16.0497	26.685	0.0438156	1.05479	0.0203786	2406.83	48.1018
6.28319	16.0997	26.870	0.0438508	1.05350	0.0199205	2401.99	48.3037
6.28319	16.1497	27.055	0.0438178	1.05130	0.0200543	2398.77	48.4775
6.28319	16.1997	27.163	0.0438091	1.05154	0.0198681	2399.81	48.6373
6.28319	16.2497	27.286	0.0438014	1.05172	0.0202115	2400.61	48.4461
6.28319	16.2997	27.452	0.0438260	1.05153	0.0202189	2398.84	48.5772
6.28319	16.3497	27.583	0.0438343	1.05077	0.0201924	2396.64	48.8079
6.28319	16.3997	27.714	0.0438060	1.04991	0.0200832	2396.25	48.8513
6.28319	16.4497	27.872	0.0438310	1.04935	0.0202213	2393.60	49.0209
6.28319	16.4997	28.001	0.0437943	1.04934	0.0206505	2395.56	49.0184
6.28319	16.5497	28.186	0.0439058	1.04827	0.0211163	2387.01	49.2523
6.28319	16.5997	28.334	0.0437866	1.04601	0.0207544	2388.38	49.5132
6.28319	16.6497	28.467	0.0437987	1.04577	0.0209140	2387.14	49.5391
6.28319	16.6997	28.626	0.0437967	1.04588	0.0208367	2387.52	49.6545
6.28319	16.7497	28.782	0.0438498	1.04613	0.0207413	2385.21	49.8159
6.28319	16.7997	28.945	0.0438322	1.04496	0.0216848	2383.43	50.1587
6.28319	16.8497	29.081	0.0437975	1.04431	0.0201300	2383.93	50.1945
6.28319	16.8997	29.223	0.0438579	1.04283	0.0214559	2377.19	50.3583
6.28319	16.9497	29.374	0.0437918	1.04231	0.0216795	2379.60	50.1736
6.28319	16.9997	29.559	0.0438494	1.04209	0.0207068	2376.01	50.2285
6.28319	17.0497	29.722	0.0438069	1.03991	0.0211103	2373.31	50.2793
6.28319	17.0997	29.867	0.0438207	1.03987	0.0213972	2372.47	50.3587
6.28319	17.1497	29.989	0.0438181	1.04009	0.0223991	2373.06	50.4815
6.28319	17.1997	30.148	0.0438180	1.03889	0.0207201	2370.42	50.4785
6.28319	17.2497	30.343	0.0438202	1.03806	0.0220047	2368.34	50.7950
6.28319	17.2997	30.487	0.0438707	1.03718	0.0201245	2363.69	50.8531
6.28319	17.3497	30.667	0.0438227	1.03557	0.0212936	2362.55	51.0037
6.28319	17.3997	30.848	0.0438019	1.03529	0.0214457	2363.04	51.3261
6.28319	17.4497	30.966	0.0438174	1.03461	0.0215879	2360.64	51.4780
6.28319	17.4997	31.117	0.0438820	1.03470	0.0217990	2357.36	51.5585
6.28319	17.5497	31.262	0.0437967	1.03228	0.0219877	2356.40	51.5256
6.28319	17.5997	31.371	0.0438139	1.03207	0.0222394	2355.01	51.8123
6.28319	17.6497	31.486	0.0438069	1.03088	0.0220606	2352.65	51.8074
6.28319	17.6997	31.653	0.0438250	1.03204	0.0226693	2354.30	52.3062
6.28319	17.7497	31.838	0.0438032	1.03087	0.0227236	2352.81	52.4798
6.28319	17.7997	31.990	0.0438148	1.03062	0.0225257	2351.63	52.7268
6.28319	17.8497	32.129	0.0438459	1.02969	0.0221418	2347.86	52.8809
6.28319	17.8997	32.294	0.0438133	1.02920	0.0224152	2348.47	53.0670
6.28319	17.9497	32.433	0.0438183	1.02943	0.0232604	2348.68	53.2011
6.28319	17.9997	32.640	0.0438711	1.02722	0.0227981	2340.84	53.4248
6.28319	18.0497	32.747	0.0437933	1.02596	0.0230625	2342.11	53.5648
6.28319	18.0997	32.879	0.0438243	1.02549	0.0221852	2339.43	53.6297
6.28319	18.1497	33.042	0.0438354	1.02491	0.0232202	2337.45	53.7812
6.28319	18.1997	33.177	0.0438027	1.02293	0.0228517	2334.71	53.8483
6.28319	18.2497	33.318	0.0438077	1.02374	0.0230903	2336.27	54.0692
6.28319	18.2997	33.481	0.0438167	1.02383	0.0230772	2336.01	54.2788
6.28319	18.3497	33.664	0.0438753	1.02300	0.0236371	2330.94	54.3889
6.28319	18.3997	33.793	0.0437814	1.02081	0.0234082	2330.97	54.6426
6.28319	18.4497	33.932	0.0438232	1.02130	0.0234357	2329.86	54.7500
6.28319	18.4997	34.092	0.0438585	1.01966	0.0239189	2324.23	54.9584
6.28319	18.5497	34.220	0.0438305	1.01886	0.0233213	2323.92	55.1135
6.28319	18.5997	34.383	0.0438248	1.01786	0.0238570	2321.90	55.2819
6.28319	18.6497	34.549	0.0438153	1.01712	0.0239577	2320.71	55.5506
6.28319	18.6997	34.676	0.0437963	1.01619	0.0240138	2319.60	55.6470
6.28319	18.7497	34.818	0.0438678	1.01564	0.0248431	2314.53	55.7318
6.28319	18.7997	34.994	0.0438273	1.01358	0.0241782	2312.00	55.8577
6.28319	18.8497	35.161	0.0437994	1.01350	0.0236859	2313.30	56.0680
6.28319	18.8997	35.288	0.0438345	1.01338	0.0246806	2311.14	56.2518
6.28319	18.9497	35.436	0.0438453	1.01248	0.0240833	2308.53	56.5301
6.28319	18.9997	35.602	0.0437980	1.01200	0.0250090	2309.88	56.6024
6.28319	19.0497	35.734	0.0438108	1.01151	0.0241224	2308.13	56.7511
6.28319	19.0997	35.838	0.0438558	1.01113	0.0244788	2304.90	56.7179
6.28319	19.1497	36.008	0.0438134	1.00944	0.0243451	2303.26	56.7747
6.28319	19.1997	36.161	0.0438304	1.00816	0.0250167	2299.42	56.8185
6.28319	19.2497	36.300	0.0438325	1.00761	0.0254944	2298.03	56.9506
6.28319	19.2997	36.436	0.0438230	1.00691	0.0254155	2296.94	57.1423
6.28319	19.3497	36.619	0.0437988	1.00531	0.0245327	2294.60	57.3023
6.28319	19.3997	36.809	0.0438660	1.00627	0.0253213	2293.23	57.5775
6.28319	19.4497	36.945	0.0438294	1.00441	0.0242705	2290.96	58.0484
6.28319	19.4997	37.075	0.0438208	1.00244	0.0255134	2286.84	58.3491
6.28319	19.5497	37.228	0.0438296	1.00182	0.0247021	2285.02	58.6462
6.28319	19.5997	37.445	0.0438388	1.00148	0.0248218	2283.75	58.9915
6.28319	19.6497	37.585	0.0438193	0.999706	0.0265172	2280.62	59.1671
6.28319	19.6997	37.748	0.0438431	0.998365	0.0252817	2276.40	59.3778
6.28319	19.7497	37.889	0.0438074	0.997684	0.0270041	2276.60	59.6374
6.28319	19.7997	38.012	0.0438347	0.997453	0.0277877	2274.61	59.9060
6.28319	19.8497	38.130	0.0438613	0.996422	0.0271730	2270.92	60.2456
6.28319	19.8997	38.258	0.0438009	0.994700	0.0265979	2270.16	60.5723
6.28319	19.9497	38.434	0.0438158	0.994319	0.0267271	2268.51	61.0165
6.28319	19.9997	38.584	0.0438327	0.993653	0.0271092	2266.09	61.4873
6.28319	20.0497	38.716	0.0438253	0.992764	0.0269260	2264.45	61.7629
6.28319	20.0997	38.867	0.0438286	0.991565	0.0268195	2261.55	62.1082
6.28319	20.1497	39.053	0.0438087	0.990936	0.0279141	2261.08	62.4120
6.28319	20.1997	39.201	0.0438573	0.989907	0.0273725	2256.26	62.5591
6.28319	20.2497	39.357	0.0438297	0.988337	0.0285508	2254.03	62.6928
6.28319	20.2997	39.537	0.0438334	0.986534	0.0275128	2249.79	63.3815
6.28319	20.3497	39.643	0.0438086	0.986169	0.0281643	2250.19	63.6908
6.28319	20.3997	39.784	0.0438362	0.986457	0.0289831	2249.38	64.0894
6.28319	20.4497	39.941	0.0438588	0.984316	0.0276883	2243.42	64.5218
6.28319	20.4997	40.054	0.0438424	0.982945	0.0291599	2241.05	64.7891
6.28319	20.5497	40.185	0.0438255	0.981419	0.0291367	2238.43	65.0883
6.28319	20.5997	40.339	0.0438292	0.979906	0.0283898	2234.84	65.5548
6.28319	20.6497	40.481	0.0438405	0.979053	0.0310750	2232.14	65.9267
6.28319	20.6997	40.621	0.0438054	0.978502	0.0299725	2232.75	66.4416
6.28319	20.7497	40.765	0.0438458	0.977640	0.0303344	2228.70	66.8251
6.28319	20.7997	40.984	0.0438565	0.975569	0.0302256	2223.44	67.3361
6.28319	20.8497	41.145	0.0438229	0.974212	0.0297857	2222.08	68.0101
6.28319	20.8997	41.287	0.0438403	0.973446	0.0308867	2219.38	68.5479
6.28319	20.9497	41.440	0.0438054	0.971732	0.0308591	2217.24	69.0321
6.28319	20.9997	41.566	0.0438600	0.971472	0.0318806	2213.81	69.9098
6.28319	21.0497	41.695	0.0438535	0.969126	0.0315128	2208.82	70.2324
6.28319	21.0997	41.850	0.0438231	0.968532	0.0312910	2209.01	70.8208
6.28319	21.1497	41.987	0.0438927	0.966113	0.0317028	2199.97	71.3448
6.28319	21.1997	42.155	0.0438056	0.963396	0.0326116	2198.08	72.0670
6.28319	21.2497	42.319	0.0438393	0.963124	0.0335646	2195.71	72.9833
6.28319	21.2997	42.464	0.0438415	0.962120	0.0330173	2193.34	73.7713
6.28319	21.3497	42.602	0.0438548	0.960320	0.0356446	2188.38	74.4861
6.28319	21.3997	42.743	0.0438352	0.957689	0.0346738	2183.44	74.9936
6.28319	21.4497	42.872	0.0438390	0.956678	0.0346475	2180.94	75.6924
6.28319	21.4997	43.015	0.0438614	0.955978	0.0351984	2178.19	76.5378
6.28319	21.5497	43.155	0.0438588	0.953091	0.0350831	2171.75	77.3176
6.28319	21.5997	43.332	0.0438449	0.950620	0.0362010	2166.72	78.1476
6.28319	21.6497	43.493	0.0438650	0.949014	0.0372897	2161.99	78.8471
6.28319	21.6997	43.664	0.0437954	0.947753	0.0370132	2162.57	79.3004
6.28319	21.7497	43.831	0.0438555	0.946707	0.0366073	2157.25	80.3542
6.28319	21.7997	43.990	0.0438524	0.944401	0.0382922	2152.01	82.4054
6.28319	21.8497	44.097	0.0438787	0.942196	0.0379370	2145.73	81.4025
6.28319	21.8997	44.245	0.0438711	0.939442	0.0394087	2139.71	84.3233
6.28319	21.9497	44.381	0.0438281	0.937284	0.0399138	2136.85	85.2897
6.28319	21.9997	44.507	0.0439353	0.935834	0.0402329	2128.31	85.6279
6.28319	22.0497	44.710	0.0438014	0.931222	0.0417852	2124.16	88.7582
6.28319	22.0997	44.875	0.0438307	0.930975	0.0425592	2122.10	90.3150
6.28319	22.1497	45.027	0.0439045	0.928658	0.0433068	2113.20	91.5158
6.28319	22.1997	45.162	0.0438420	0.925087	0.0442503	2107.98	93.2788
6.28319	22.2497	45.321	0.0438650	0.923085	0.0440463	2102.34	92.6002
6.28319	22.2997	45.483	0.0438990	0.920943	0.0455394	2095.69	95.4367
6.28319	22.3497	45.623	0.0439227	0.918086	0.0475093	2087.88	99.1935
6.28319	22.3997	45.754	0.0438258	0.913407	0.0476847	2081.81	99.2706
6.28319	22.4497	45.917	0.0438688	0.911220	0.0491177	2074.65	101.902
6.28319	22.4997	46.052	0.0439036	0.908814	0.0495173	2067.49	102.376
6.28319	22.5497	46.219	0.0438604	0.904734	0.0512595	2060.05	105.597
6.28319	22.5997	46.432	0.0438929	0.903044	0.0520778	2054.60	106.999
6.28319	22.6497	46.579	0.0438697	0.898931	0.0525891	2046.26	107.611
6.28319	22.6997	46.696	0.0439381	0.895493	0.0559193	2034.90	113.790
6.28319	22.7497	46.805	0.0439052	0.890556	0.0555105	2025.24	112.422
6.28319	22.7997	46.912	0.0439000	0.885466	0.0597008	2013.42	120.203
6.28319	22.8497	47.106	0.0439229	0.881947	0.0608117	2004.24	121.881
6.28319	22.8997	47.240	0.0439245	0.876964	0.0637419	1992.48	127.004
6.28319	22.9497	47.377	0.0439531	0.872320	0.0662285	1980.32	131.154
6.28319	22.9997	47.567	0.0439129	0.865951	0.0677088	1967.47	133.215
6.28319	23.0497	47.709	0.0439189	0.861908	0.0713586	1957.52	139.686
6.28319	23.0997	47.843	0.0439446	0.856759	0.0731141	1944.44	142.166
6.28319	23.1497	48.011	0.0439390	0.851513	0.0758211	1932.40	146.517
6.28319	23.1997	48.173	0.0439156	0.846041	0.0786355	1920.59	151.026
6.28319	23.2497	48.305	0.0439617	0.840955	0.0805075	1906.76	153.508
6.28319	23.2997	48.485	0.0439505	0.835396	0.0846642	1893.99	160.353
6.28319	23.3497	48.636	0.0439942	0.828359	0.0879656	1875.64	164.992
6.28319	23.3997	48.779	0.0439626	0.822063	0.0914452	1862.14	170.284
6.28319	23.4497	48.937	0.0440608	0.815749	0.0953272	1843.06	175.694
6.28319	23.4997	49.060	0.0439446	0.806968	0.0994237	1827.32	181.679
6.28319	23.5497	49.213	0.0440056	0.799969	0.103440	1808.23	187.044
6.28319	23.5997	49.356	0.0440548	0.792447	0.109645	1788.06	196.052
6.28319	23.6497	49.541	0.0440545	0.782720	0.115779	1764.92	204.340
6.28319	23.6997	49.742	0.0440375	0.773564	0.119924	1744.10	209.161
6.28319	23.7497	49.904	0.0440517	0.764960	0.126057	1722.87	217.179
6.28319	23.7997	50.049	0.0441045	0.755120	0.132305	1697.32	224.565
6.28319	23.8497	50.166	0.0440886	0.744797	0.138229	1673.41	231.314
6.28319	23.8997	50.276	0.0440570	0.734350	0.144802	1649.61	238.868
6.28319	23.9497	50.457	0.0441033	0.726147	0.152493	1627.65	248.205
6.28319	23.9997	50.640	0.0441143	0.715731	0.159606	1602.17	255.716
6.28319	24.0497	50.813	0.0440441	0.705026	0.167079	1578.84	263.791
6.28319	24.0997	50.950	0.0441392	0.696079	0.173072	1553.91	268.937
6.28319	24.1497	51.105	0.0441342	0.686156	0.180981	1529.85	276.874
6.28319	24.1997	51.252	0.0441330	0.675583	0.188776	1504.22	283.961
6.28319	24.2497	51.398	0.0441712	0.663222	0.200319	1472.23	294.917
6.28319	24.2997	51.543	0.0443105	0.649903	0.213861	1434.27	306.734
6.28319	24.3497	51.679	0.0441676	0.636269	0.222517	1406.19	312.901
6.28319	24.3997	51.817	0.0442249	0.625301	0.232798	1377.09	320.583
6.28319	24.4497	51.996	0.0441561	0.613462	0.242093	1350.30	326.898
6.28319	24.4997	52.172	0.0442623	0.602052	0.252566	1318.78	333.079
6.28319	24.5497	52.338	0.0441834	0.589799	0.264986	1290.36	341.926
6.28319	24.5997	52.457	0.0443003	0.578915	0.277818	1259.11	349.804
6.28319	24.6497	52.577	0.0443881	0.564117	0.295213	1218.87	359.827
6.28319	24.6997	52.733	0.0444622	0.547947	0.310420	1176.98	365.360
6.28319	24.7497	52.892	0.0443492	0.531854	0.326937	1139.87	372.666
6.28319	24.7997	53.038	0.0444043	0.517740	0.343419	1102.75	378.706
6.28319	24.8497	53.189	0.0444272	0.503098	0.361250	1065.05	384.748
6.28319	24.8913	53.312	0.0443225	0.491285	0.377725	1036.92	391.673
6.28319	24.9497	53.439	0.0446080	0.470477	0.403819	977.962	394.920
6.28319	24.9997	53.595	0.0445514	0.454038	0.428144	936.876	401.118
6.28319	25.0497	53.746	0.0444692	0.438529	0.448873	899.663	403.834
6.28319	25.0997	53.911	0.0445580	0.424082	0.471934	860.717	406.202
6.28319	25.1497	54.084	0.0447481	0.407917	0.496068	816.628	405.103
6.28319	25.1997	54.203	0.0445331	0.392246	0.516772	782.491	404.369
6.28319	25.2497	54.312	0.0446313	0.378216	0.546513	743.618	406.397
6.28319	25.2997	54.465	0.0449451	0.361428	0.576695	696.616	401.735
6.28319	25.3497	54.670	0.0448211	0.343421	0.606990	654.986	397.570
6.28319	25.3997	54.798	0.0446573	0.328785	0.634692	621.608	394.529
6.28319	25.4497	54.892	0.0448771	0.314425	0.665227	583.351	388.061
6.28319	25.4997	55.048	0.0449560	0.299901	0.698005	547.022	381.824
6.28319	25.5497	55.205	0.0448350	0.284284	0.731741	511.703	374.434
6.28319	25.5997	55.394	0.0452883	0.269526	0.780795	469.083	366.257
6.28319	25.6497	55.541	0.0450064	0.252691	0.815838	435.041	354.923
6.28319	25.6997	55.685	0.0451725	0.239346	0.860149	401.694	345.517
6.28319	25.7497	55.872	0.0453981	0.223692	0.910961	364.254	331.821
6.28319	25.7997	56.020	0.0448535	0.209858	0.946590	339.787	321.639
6.28319	25.8497	56.141	0.0454366	0.198691	1.00867	307.875	310.545
6.28319	25.9080	56.327	0.0451336	0.181614	1.05764	276.454	292.390
6.28319	25.9497	56.411	0.0449872	0.173462	1.09556	259.943	284.784
6.28319	25.9997	56.609	0.0453181	0.163540	1.13836	237.554	271.654
6.28319	26.0497	56.770	0.0452579	0.154115	1.20093	218.479	261.198
6.28319	26.0997	56.935	0.0454134	0.143542	1.26417	196.766	247.363
6.28319	26.1497	57.040	0.0453110	0.134205	1.30499	179.421	235.659
6.28319	26.1997	57.182	0.0453465	0.125463	1.36140	163.144	223.459
6.28319	26.2497	57.339	0.0451302	0.118011	1.42856	151.604	213.056
6.28319	26.2913	57.464	0.0454827	0.112389	1.48067	138.866	204.391
6.28319	26.3580	57.700	0.0458458	0.100426	1.57769	117.067	185.145
6.28319	26.3913	57.787	0.0460907	0.0949287	1.61295	107.580	175.631
6.28319	26.4413	57.963	0.0456749	0.0877180	1.69518	97.9916	165.167
6.28319	26.5163	58.122	0.0452647	0.0800515	1.77056	87.7194	153.564
6.28319	26.5497	58.220	0.0454936	0.0766311	1.81678	81.7820	147.258
6.28319	26.5830	58.319	0.0449403	0.0729545	1.86020	76.5526	143.153
6.28319	26.6330	58.469	0.0461016	0.0670630	1.93090	66.4480	129.405
6.28319	26.6830	58.621	0.0459940	0.0603959	2.00159	58.4354	117.594
6.28319	26.7997	58.923	0.0458305	0.0527806	2.13297	48.4559	104.475
6.28319	26.8997	59.232	0.0460326	0.0434417	2.25096	37.9907	86.3869
6.28319	26.9330	59.347	0.0458173	0.0411140	2.26725	35.8624	82.2570
6.28319	26.9747	59.484	0.0463782	0.0383490	2.30947	32.3600	76.0925
6.28319	27.0163	59.610	0.0457436	0.0349901	2.33689	29.7726	70.4600
6.28319	27.1497	60.031	0.0456521	0.0284839	2.37533	24.2712	57.4791
6.28319	27.1913	60.131	0.0457913	0.0270094	2.37918	22.4830	54.5306
6.28319	27.2330	60.250	0.0455137	0.0252247	2.37807	21.6246	51.0293
6.28319	27.2830	60.434	0.0458335	0.0237433	2.37524	19.9518	47.8070
6.28319	27.3330	60.566	0.0455571	0.0220356	2.36280	18.7661	44.5803
6.28319	27.3830	60.709	0.0454253	0.0206476	2.34407	17.7666	41.8378
6.28319	27.4247	60.858	0.0458515	0.0195703	2.32487	16.7163	39.2721
6.28319	27.4830	61.067	0.0457624	0.0177207	2.28060	15.5969	35.4433
6.28319	27.5497	61.257	0.0456928	0.0162762	2.23577	14.3074	32.6213
6.28319	27.5830	61.335	0.0454741	0.0155748	2.21162	14.1514	31.1897
6.28319	27.6330	61.474	0.0452920	0.0146218	2.16796	13.4971	29.3264
6.28319	27.6830	61.594	0.0454197	0.0138956	2.13134	12.9399	27.7226
6.28319	27.7413	61.798	0.0458183	0.0127117	2.05283	12.1713	24.9314
6.28319	27.7830	61.924	0.0454841	0.0119749	2.00957	11.7170	23.5767
6.28319	27.8330	62.114	0.0454030	0.0111858	1.93945	11.3258	21.8791
6.28319	27.8830	62.246	0.0453183	0.0105214	1.89127	10.8410	20.5301
6.28319	27.9330	62.398	0.0452774	9.92086e-3	1.83567	10.4841	19.2403
6.28319	27.9830	62.582	0.0454323	9.31717e-3	1.76528	10.1035	17.8463
6.28319	28.0413	62.764	0.0455392	8.72104e-3	1.69190	9.64777	16.5429
6.28319	28.0830	62.880	0.0451182	8.25804e-3	1.64772	9.47729	15.6584
6.28319	28.1163	62.983	0.0456506	7.97500e-3	1.60902	9.24523	14.8227
6.28319	28.1747	63.165	0.0453785	7.20845e-3	1.53501	8.76547	13.2478
6.28319	28.2413	63.361	0.0452026	6.72881e-3	1.45375	8.40705	12.2846
6.28319	28.2913	63.505	0.0450633	6.41914e-3	1.39644	8.24426	11.6165
6.28319	28.3330	63.613	0.0453539	6.10996e-3	1.35518	8.03155	10.8158
6.28319	28.3747	63.744	0.0451854	5.77525e-3	1.29849	7.78917	10.1336
6.28319	28.4413	63.978	0.0446757	5.46727e-3	1.24363	7.66864	9.53693
6.28319	28.4830	64.099	0.0447301	5.30181e-3	1.21225	7.54251	9.14340
6.28319	28.5330	64.252	0.0447493	5.09598e-3	1.18183	7.35585	8.69333
6.28319	28.5830	64.381	0.0449611	4.87992e-3	1.13250	7.18397	8.13588
6.28319	28.6330	64.572	0.0447781	4.64215e-3	1.09042	7.00696	7.64051
6.28319	28.6830	64.732	0.0448803	4.43603e-3	1.03905	6.85403	7.12170
6.28319	28.7330	64.866	0.0449228	4.25493e-3	0.996719	6.70847	6.68646
6.28319	28.7830	64.993	0.0446905	4.05918e-3	0.962803	6.54309	6.29971
6.28319	28.8330	65.115	0.0445864	3.90627e-3	0.937127	6.39275	5.99082
6.28319	28.8830	65.253	0.0445049	3.76910e-3	0.900276	6.29406	5.66639
6.28319	28.9330	65.453	0.0441904	3.67524e-3	0.884079	6.23095	5.50865
6.28319	28.9830	65.607	0.0445550	3.58895e-3	0.854429	6.12409	5.23260
6.28319	29.0330	65.791	0.0446369	3.47055e-3	0.822836	6.00386	4.94019
6.28319	29.0830	65.904	0.0443838	3.35003e-3	0.796820	5.90304	4.70366
6.28319	29.1330	66.062	0.0444539	3.26744e-3	0.768500	5.82797	4.47880
6.28319	29.1830	66.242	0.0442545	3.18706e-3	0.759123	5.73611	4.35441
6.28319	29.2330	66.380	0.0444190	3.11851e-3	0.737482	5.65031	4.16700
6.28319	29.2830	66.496	0.0442717	3.02908e-3	0.709798	5.57939	3.96024
6.28319	29.3330	66.623	0.0443887	2.96780e-3	0.695499	5.48891	3.81753
6.28319	29.3830	66.784	0.0442692	2.90187e-3	0.679547	5.42169	3.68429
6.28319	29.4330	66.895	0.0443468	2.83040e-3	0.654273	5.34084	3.49437
6.28319	29.4830	67.058	0.0442045	2.76239e-3	0.641270	5.26042	3.37335
6.28319	29.5330	67.218	0.0442724	2.71050e-3	0.625689	5.19011	3.24740
6.28319	29.5830	67.370	0.0442668	2.65538e-3	0.608398	5.12465	3.11783
6.28319	29.6330	67.543	0.0443356	2.60127e-3	0.590276	5.05265	2.98246
6.28319	29.6830	67.722	0.0441316	2.54770e-3	0.575655	5.00320	2.88012
6.28319	29.7330	67.846	0.0441882	2.50204e-3	0.564800	4.93022	2.78459
6.28319	29.7830	67.950	0.0441947	2.46026e-3	0.550615	4.87652	2.68508
6.28319	29.8330	68.095	0.0441793	2.42489e-3	0.541857	4.82582	2.61491
6.28319	29.8830	68.232	0.0443574	2.37422e-3	0.523771	4.74147	2.48344
6.28319	29.9330	68.401	0.0440985	2.33093e-3	0.509975	4.70877	2.40136
6.28319	29.9830	68.577	0.0443341	2.29477e-3	0.500697	4.62834	2.31739
6.28319	30.0330	68.728	0.0440390	2.25789e-3	0.489203	4.60546	2.25301
6.28319	30.0830	68.880	0.0442352	2.22458e-3	0.473010	4.54607	2.15034
6.28319	30.1330	68.992	0.0440647	2.18682e-3	0.466475	4.49748	2.09796
6.28319	30.1830	69.106	0.0440699	2.14940e-3	0.451459	4.44525	2.00685
6.28319	30.2330	69.267	0.0442200	2.12336e-3	0.444965	4.38710	1.95211
6.28319	30.2830	69.428	0.0439316	2.09462e-3	0.442001	4.36093	1.92753
6.28319	30.3330	69.574	0.0440920	2.07358e-3	0.432239	4.31685	1.86591
6.28319	30.3830	69.698	0.0441125	2.05110e-3	0.424680	4.27976	1.81753
6.28319	30.4330	69.832	0.0441766	2.02084e-3	0.416208	4.22326	1.75776
6.28319	30.4830	70.020	0.0440271	1.99376e-3	0.409578	4.19062	1.71639
6.28319	30.5330	70.236	0.0440796	1.97416e-3	0.398154	4.16095	1.65670
6.28319	30.5830	70.388	0.0439808	1.95041e-3	0.393940	4.12607	1.62542
6.28319	30.6330	70.527	0.0441288	1.93093e-3	0.385174	4.08325	1.57276
6.28319	30.6830	70.681	0.0440849	1.90656e-3	0.376313	4.04763	1.52318
6.28319	30.7330	70.778	0.0439515	1.87144e-3	0.369974	3.99342	1.47746
6.28319	30.7830	70.910	0.0441737	1.86310e-3	0.361564	3.96637	1.43410
6.28319	30.8413	71.061	0.0441313	1.85288e-3	0.361410	3.94860	1.42706
6.28319	30.8830	71.212	0.0439568	1.82445e-3	0.346507	3.92179	1.35893
6.28319	30.9330	71.371	0.0441687	1.81146e-3	0.345401	3.87652	1.33896
6.28319	30.9830	71.541	0.0438806	1.79285e-3	0.335800	3.87321	1.30063
6.28319	31.0330	71.710	0.0441410	1.76055e-3	0.328917	3.78878	1.24619
6.28319	31.0830	71.833	0.0440085	1.75354e-3	0.329536	3.78438	1.24709
6.28319	31.1663	71.964	0.0442692	1.74951e-3	0.328366	3.75474	1.23293
6.28319	31.1997	72.084	0.0440115	1.71752e-3	0.317818	3.71911	1.18200
6.28319	31.2497	72.225	0.0440665	1.70334e-3	0.313638	3.68823	1.15677
6.28319	31.2997	72.351	0.0438856	1.68478e-3	0.305977	3.67102	1.12325
6.28319	31.3497	72.513	0.0441152	1.66929e-3	0.298707	3.62563	1.08300
6.28319	31.4163	72.734	0.0441162	1.65039e-3	0.283821	3.59885	1.02143
6.28319	31.4497	72.837	0.0438863	1.64326e-3	0.289391	3.59677	1.04087
6.28319	31.4913	72.955	0.0437457	1.64100e-3	0.292014	3.60085	1.05150
6.28319	31.5497	73.160	0.0437434	1.61813e-3	0.282896	3.55946	1.00696
6.28319	31.5913	73.298	0.0441371	1.61441e-3	0.279548	3.52266	0.984754
6.28319	31.6497	73.455	0.0441574	1.60296e-3	0.278519	3.49702	0.973985
6.28319	31.6997	73.610	0.0437229	1.58625e-3	0.273171	3.49972	0.956023
6.28319	31.7330	73.715	0.0443454	1.59374e-3	0.262956	3.47577	0.913975
6.28319	31.7997	73.929	0.0438862	1.57342e-3	0.268137	3.46291	0.928534
6.28319	31.8497	74.070	0.0438691	1.55834e-3	0.263980	3.43459	0.906664
6.28319	31.8913	74.176	0.0438592	1.55931e-3	0.257349	3.44308	0.886073
6.28319	31.9497	74.324	0.0439116	1.54327e-3	0.252752	3.40734	0.861212
6.28319	31.9997	74.473	0.0438788	1.52420e-3	0.251294	3.36892	0.846591
6.28319	32.0413	74.598	0.0436097	1.51882e-3	0.253490	3.37598	0.855779
6.28319	32.0997	74.828	0.0438014	1.51191e-3	0.250286	3.34845	0.838071
6.28319	32.1497	74.984	0.0437446	1.49115e-3	0.235806	3.31777	0.782348
6.28319	32.2080	75.159	0.0438424	1.47822e-3	0.237907	3.28013	0.780366
6.28319	32.2413	75.246	0.0437355	1.47694e-3	0.235814	3.28682	0.775079
6.28319	32.2997	75.491	0.0442391	1.47517e-3	0.230031	3.24968	0.747528
6.28319	32.3497	75.682	0.0437805	1.47893e-3	0.234232	3.28903	0.770395
6.28319	32.3997	75.855	0.0439647	1.46926e-3	0.235420	3.25298	0.765816
6.28319	32.4497	75.965	0.0436479	1.45983e-3	0.232212	3.25789	0.756521
6.28319	32.4997	76.125	0.0437946	1.45272e-3	0.231282	3.23181	0.747459
6.28319	32.5830	76.372	0.0438606	1.43408e-3	0.221174	3.19247	0.706092
6.28319	32.6163	76.439	0.0442302	1.45228e-3	0.218799	3.20758	0.701814
6.28319	32.6580	76.551	0.0436527	1.43823e-3	0.226671	3.21320	0.728338
6.28319	32.7163	76.736	0.0438611	1.44052e-3	0.219013	3.20824	0.702646
6.28319	32.7747	76.940	0.0438551	1.42700e-3	0.218682	3.17878	0.695141
6.28319	32.8163	77.082	0.0437998	1.41469e-3	0.217552	3.15608	0.686612
6.28319	32.8747	77.246	0.0435462	1.40897e-3	0.220790	3.15947	0.697580
6.28319	32.9163	77.389	0.0438701	1.41104e-3	0.219295	3.14176	0.688972
6.28319	32.9497	77.501	0.0441441	1.41553e-3	0.220506	3.13139	0.690491
6.28319	33.0163	77.693	0.0439525	1.40369e-3	0.215478	3.12200	0.672723
6.28319	33.0997	78.033	0.0441417	1.39654e-3	0.211707	3.09515	0.655265
6.28319	33.1330	78.142	0.0436982	1.37647e-3	0.206181	3.08506	0.636082
6.28319	33.1997	78.263	0.0440851	1.37702e-3	0.205956	3.05933	0.630088
6.28319	33.2330	78.341	0.0439485	1.37384e-3	0.206722	3.06130	0.632838
6.28319	33.2913	78.500	0.0435020	1.36904e-3	0.208359	3.08092	0.641935
6.28319	33.3413	78.662	0.0437570	1.35858e-3	0.211600	3.03757	0.642750
6.28319	33.3830	78.831	0.0436289	1.36818e-3	0.210663	3.06859	0.646437
6.28319	33.4247	78.960	0.0438145	1.37290e-3	0.202782	3.07094	0.622733
6.28319	33.4747	79.086	0.0439285	1.36867e-3	0.205491	3.05191	0.627142
6.28319	33.5330	79.241	0.0437859	1.35785e-3	0.203768	3.03867	0.619184
6.28319	33.6163	79.492	0.0436226	1.35009e-3	0.206650	3.03090	0.626335
6.28319	33.6413	79.541	0.0437655	1.35723e-3	0.202437	3.03950	0.615307
6.28319	33.6830	79.644	0.0441263	1.33780e-3	0.211101	2.96638	0.626204
6.28319	33.7580	79.835	0.0439831	1.34263e-3	0.207822	2.98875	0.621129
6.28319	33.7997	79.974	0.0437954	1.34165e-3	0.207962	2.99927	0.623735
6.28319	33.8497	80.140	0.0438756	1.34299e-3	0.202885	2.99979	0.608612
6.28319	33.9163	80.374	0.0440277	1.33676e-3	0.198118	2.97830	0.590054
6.28319	33.9497	80.460	0.0438185	1.33511e-3	0.206929	2.98370	0.617414
6.28319	33.9997	80.585	0.0438360	1.33696e-3	0.205115	2.98771	0.612826
6.28319	34.0580	80.764	0.0440299	1.32951e-3	0.203239	2.95906	0.601396
6.28319	34.0997	80.915	0.0437977	1.32894e-3	0.205592	2.97211	0.611043
6.28319	34.1497	81.086	0.0437056	1.32559e-3	0.205060	2.97117	0.609268
6.28319	34.2330	81.331	0.0435947	1.30884e-3	0.212773	2.93655	0.624818
6.28319	34.2663	81.458	0.0436341	1.32659e-3	0.207261	2.97699	0.617014
6.28319	34.3163	81.621	0.0437618	1.32132e-3	0.206669	2.95686	0.611093
6.28319	34.3663	81.727	0.0438604	1.31713e-3	0.205541	2.94152	0.604604
6.28319	34.4163	81.879	0.0439825	1.31327e-3	0.201735	2.92693	0.590465
6.28319	34.4580	82.001	0.0442301	1.31132e-3	0.210208	2.90136	0.609890
6.28319	34.5163	82.182	0.0438200	1.30841e-3	0.205010	2.92504	0.599662
6.28319	34.5663	82.281	0.0436724	1.29557e-3	0.200316	2.90879	0.582675
6.28319	34.6163	82.442	0.0438235	1.29996e-3	0.208652	2.90381	0.605885
6.28319	34.6663	82.607	0.0433977	1.30717e-3	0.201500	2.95272	0.594971
6.28319	34.7163	82.782	0.0439162	1.29649e-3	0.203182	2.89309	0.587824
6.28319	34.7663	82.954	0.0440063	1.28120e-3	0.211109	2.84861	0.601368
6.28319	34.8163	83.115	0.0439475	1.29827e-3	0.209244	2.89151	0.605030
6.28319	34.8997	83.403	0.0432779	1.29181e-3	0.210607	2.92085	0.615152
6.28319	34.9330	83.492	0.0438400	1.28897e-3	0.209933	2.87746	0.604073
6.28319	34.9830	83.662	0.0439820	1.29926e-3	0.212965	2.88928	0.615315
6.28319	35.0330	83.787	0.0437854	1.28637e-3	0.215343	2.87206	0.618479
6.28319	35.0830	83.939	0.0438371	1.28906e-3	0.215571	2.87454	0.619670
6.28319	35.1663	84.147	0.0441996	1.28992e-3	0.202868	2.86013	0.580229
6.28319	35.1997	84.241	0.0436330	1.28018e-3	0.219427	2.86580	0.628834
6.28319	35.2580	84.446	0.0439139	1.27650e-3	0.221358	2.83813	0.628243
6.28319	35.2997	84.568	0.0437343	1.28288e-3	0.215336	2.86761	0.617500
6.28319	35.3330	84.677	0.0439106	1.28257e-3	0.219275	2.85307	0.625609
6.28319	35.3913	84.836	0.0438702	1.27746e-3	0.222689	2.84229	0.632947
6.28319	35.4580	85.037	0.0436354	1.27695e-3	0.227939	2.85321	0.650359
6.28319	35.4997	85.175	0.0437331	1.26142e-3	0.213139	2.82098	0.601262
6.28319	35.5497	85.271	0.0439129	1.26977e-3	0.222318	2.82265	0.627524
6.28319	35.6080	85.445	0.0441945	1.27424e-3	0.222253	2.81457	0.625546
6.28319	35.6497	85.588	0.0438913	1.28791e-3	0.217807	2.86710	0.624472
6.28319	35.6997	85.745	0.0436803	1.26515e-3	0.226914	2.82459	0.640939
6.28319	35.7497	85.904	0.0437249	1.25845e-3	0.228154	2.80599	0.640198
6.28319	35.8080	86.113	0.0438870	1.25041e-3	0.226409	2.77883	0.629152
6.28319	35.8497	86.169	0.0438486	1.27348e-3	0.230163	2.83027	0.651424
6.28319	35.8997	86.313	0.0440955	1.26291e-3	0.228155	2.79228	0.637072
6.28319	35.9497	86.472	0.0438356	1.25761e-3	0.223575	2.79980	0.625965
6.28319	36.0497	86.752	0.0436826	1.25396e-3	0.231157	2.79688	0.646517
6.28319	36.0830	86.846	0.0437149	1.26282e-3	0.233108	2.81333	0.655809
6.28319	36.1247	86.989	0.0439217	1.26232e-3	0.237697	2.79612	0.664628
6.28319	36.1913	87.188	0.0437361	1.25999e-3	0.238816	2.80210	0.669187
6.28319	36.2497	87.409	0.0434236	1.25985e-3	0.235244	2.82421	0.664378
6.28319	36.2830	87.498	0.0442947	1.24503e-3	0.232219	2.73794	0.635801
6.28319	36.3330	87.659	0.0438207	1.24765e-3	0.238760	2.76933	0.661205
6.28319	36.3830	87.782	0.0442279	1.24408e-3	0.234854	2.73838	0.643121
6.28319	36.4330	87.901	0.0440500	1.25508e-3	0.248109	2.76538	0.686116
6.28319	36.4830	88.027	0.0439341	1.24413e-3	0.240939	2.75304	0.663316
6.28319	36.5497	88.252	0.0440338	1.25088e-3	0.243788	2.75990	0.672830
6.28319	36.5830	88.357	0.0436964	1.24725e-3	0.245395	2.77210	0.680261
6.28319	36.6413	88.499	0.0435876	1.24236e-3	0.250589	2.76478	0.692822
6.28319	36.6997	88.707	0.0436470	1.22698e-3	0.244085	2.73097	0.666589
6.28319	36.7247	88.786	0.0440570	1.23395e-3	0.242188	2.72210	0.659260
6.28319	36.8163	89.083	0.0440050	1.23526e-3	0.246211	2.72568	0.671093
6.28319	36.8497	89.178	0.0437413	1.23360e-3	0.247212	2.73780	0.676816
6.28319	36.8913	89.282	0.0440389	1.23828e-3	0.247107	2.72968	0.674524
6.28319	36.9497	89.477	0.0439201	1.23493e-3	0.250563	2.72744	0.683397
6.28319	36.9997	89.613	0.0438591	1.23556e-3	0.246651	2.73514	0.674625
6.28319	37.0497	89.757	0.0439310	1.22638e-3	0.254440	2.70540	0.688362
6.28319	37.1080	89.958	0.0438104	1.23824e-3	0.250164	2.74187	0.685918
6.28319	37.1497	90.088	0.0437722	1.24019e-3	0.251808	2.74753	0.691848
6.28319	37.1997	90.203	0.0437738	1.23959e-3	0.257541	2.74232	0.706261
6.28319	37.2413	90.312	0.0438566	1.24291e-3	0.257381	2.74459	0.706405
6.28319	37.3080	90.488	0.0438284	1.24158e-3	0.255817	2.74444	0.702074
6.28319	37.3580	90.639	0.0438338	1.22698e-3	0.252122	2.71422	0.684315
6.28319	37.3997	90.751	0.0439123	1.24412e-3	0.267718	2.73681	0.732693
6.28319	37.4413	90.912	0.0438452	1.23419e-3	0.257824	2.72574	0.702760
6.28319	37.4997	91.103	0.0438963	1.23929e-3	0.262135	2.73096	0.715879
6.28319	37.5497	91.221	0.0439178	1.22967e-3	0.255820	2.71258	0.693931
6.28319	37.5997	91.376	0.0436832	1.22929e-3	0.266081	2.71949	0.723604
6.28319	37.6497	91.524	0.0435226	1.25627e-3	0.262111	2.79216	0.731855
6.28319	37.6997	91.653	0.0436304	1.24777e-3	0.262512	2.76614	0.726145
6.28319	37.7580	91.811	0.0436495	1.24186e-3	0.261133	2.75276	0.718837
6.28319	37.7997	91.939	0.0438052	1.23825e-3	0.258826	2.73653	0.708287
6.28319	37.8580	92.127	0.0436419	1.24701e-3	0.264290	2.76252	0.730108
6.28319	37.8913	92.236	0.0438375	1.25337e-3	0.266840	2.76247	0.737138
6.28319	37.9830	92.519	0.0442400	1.25784e-3	0.262330	2.75017	0.721452
6.28319	38.0247	92.674	0.0438680	1.25490e-3	0.265898	2.76458	0.735094
6.28319	38.0747	92.823	0.0440606	1.26435e-3	0.269583	2.77066	0.746924
6.28319	38.1163	92.929	0.0438511	1.26473e-3	0.268465	2.78551	0.747812
6.28319	38.1497	93.036	0.0439484	1.27107e-3	0.266184	2.79486	0.743948
6.28319	38.2163	93.224	0.0438060	1.27199e-3	0.265218	2.80666	0.744377
6.28319	38.2663	93.378	0.0438678	1.26702e-3	0.263190	2.79315	0.735128
6.28319	38.3247	93.561	0.0436374	1.28153e-3	0.271190	2.83439	0.768659
6.28319	38.3497	93.611	0.0434626	1.28525e-3	0.271542	2.85381	0.774928
6.28319	38.4163	93.833	0.0437428	1.28209e-3	0.270231	2.82948	0.764614
6.28319	38.4997	94.078	0.0433814	1.29737e-3	0.273511	2.88466	0.788985
6.28319	38.5413	94.207	0.0439116	1.29971e-3	0.263489	2.86214	0.754143
6.28319	38.5747	94.271	0.0435237	1.29703e-3	0.274052	2.87408	0.787647
6.28319	38.6330	94.489	0.0438780	1.30606e-3	0.264686	2.87749	0.761631
6.28319	38.6830	94.632	0.0436848	1.31401e-3	0.272309	2.90225	0.790307
6.28319	38.7413	94.804	0.0436978	1.32222e-3	0.270465	2.92088	0.789996
6.28319	38.7830	94.951	0.0437156	1.33629e-3	0.271553	2.94994	0.801065
6.28319	38.8330	95.071	0.0435844	1.34220e-3	0.266006	2.97604	0.791646
6.28319	38.8747	95.196	0.0437377	1.34485e-3	0.270660	2.96801	0.803320
6.28319	38.9163	95.375	0.0440020	1.36967e-3	0.265908	3.00821	0.799908
6.28319	38.9747	95.569	0.0435302	1.37058e-3	0.268906	3.04055	0.817622
6.28319	39.0330	95.745	0.0435573	1.36646e-3	0.267380	3.03069	0.810346
6.28319	39.0663	95.838	0.0435259	1.38004e-3	0.275903	3.05643	0.843278
6.28319	39.1330	95.981	0.0434531	1.39615e-3	0.267332	3.10400	0.829799
6.28319	39.1913	96.156	0.0435841	1.40339e-3	0.270244	3.10844	0.840040
6.28319	39.2330	96.310	0.0439270	1.44144e-3	0.269488	3.16841	0.853847
6.28319	39.2830	96.467	0.0435102	1.43563e-3	0.266387	3.18834	0.849333
6.28319	39.3247	96.619	0.0433411	1.44876e-3	0.267991	3.22876	0.865279
6.28319	39.3830	96.793	0.0435708	1.46341e-3	0.269561	3.24293	0.874169
6.28319	39.4330	96.937	0.0436745	1.48348e-3	0.270122	3.27914	0.885769
6.28319	39.4913	97.129	0.0438186	1.51095e-3	0.268210	3.33049	0.893269
6.28319	39.5163	97.209	0.0432551	1.50546e-3	0.265761	3.36366	0.893928
6.28319	39.5997	97.478	0.0435403	1.51929e-3	0.263995	3.37379	0.890666
6.28319	39.6330	97.602	0.0431806	1.55025e-3	0.269152	3.46678	0.933091
6.28319	39.6663	97.702	0.0440249	1.55333e-3	0.257520	3.41682	0.879900
6.28319	39.7330	97.876	0.0436298	1.59641e-3	0.265716	3.53628	0.939648
6.28319	39.7830	98.050	0.0438040	1.62166e-3	0.261180	3.58192	0.935525
6.28319	39.8497	98.275	0.0437919	1.65548e-3	0.263161	3.65586	0.962078
6.28319	39.8747	98.354	0.0434221	1.66142e-3	0.270494	3.69347	0.999061
6.28319	39.9163	98.442	0.0439244	1.66050e-3	0.262350	3.65662	0.959314
6.28319	39.9830	98.628	0.0437238	1.70833e-3	0.260392	3.78101	0.984544
6.28319	40.0413	98.791	0.0433989	1.74176e-3	0.264692	3.87976	1.02694